Folder: hBN_analysis/Scripts/hBN second lab/RAW output/bn15kv

Note: README.md
Code for my Fourth Year Project

File: Project_001.EMSA
#FORMAT      : EMSA/MAS Spectral Data File
#VERSION     : 1.0
#TITLE       :
#DATE        : 24-Nov-2021
#TIME        : 16:20
#OWNER       : EPMAUser
#NPOINTS     : 2048.
#NCOLUMNS    : 2.
#XUNITS      : Energy (keV)
#YUNITS      : Intensity
#DATATYPE    : XY
#XPERCHAN    : 0.01
#OFFSET      : 0.00
#CHOFFSET    : 0.
#XLABEL      : X-RAY ENERGY
#YLABEL      : X-RAY INTENSITY
#BEAMKV      : 15.000
#LIVETIME    : 51.430
#REALTIME    : 60.250
#SPECTRUM    : DATA BEGINS HERE
0.00, 0
0.07, 0
0.14, 4380
0.21, 4926
0.28, 11215
0.35, 14141
0.42, 11744
0.49, 20396
0.56, 9093
0.63, 1481
0.70, 1473
0.77, 1548
0.84, 1584
0.91, 1552
0.98, 1342
1.05, 1248
1.12, 1189
1.19, 1106
1.26, 1004
1.33, 1027
1.40, 1690
1.47, 18170
1.54, 3383
1.61, 762
1.68, 632
1.75, 560
1.82, 550
1.89, 488
1.96, 397
2.03, 384
2.10, 374
2.17, 317
2.24, 309
2.31, 298
2.38, 238
2.45, 199
2.52, 178
2.59, 210
2.66, 185
2.73, 150
2.80, 139
2.87, 130
2.94, 120
3.01, 130
3.08, 72
3.15, 69
3.22, 67
3.29, 59
3.36, 58
3.43, 45
3.50, 27
3.57, 36
3.64, 27
3.71, 16
3.78, 15
3.85, 13
3.92, 10
3.99, 10
4.06, 11
4.13, 7
4.20, 11
4.27, 2
4.34, 4
4.41, 3
4.48, 3
4.55, 1
4.62, 3
4.69, 2
4.76, 2
4.83, 2
4.90, 3
4.97, 2
5.04, 2
5.11, 4
5.18, 3
5.25, 1
5.32, 1
5.39, 0
5.46, 2
5.53, 1
5.60, 2
5.67, 1
5.74, 2
5.81, 0
5.88, 3
5.95, 0
6.02, 1
6.09, 3
6.16, 2
6.23, 0
6.30, 1
6.37, 3
6.44, 1
6.51, 1
6.58, 2
6.65, 1
6.72, 2
6.79, 4
6.86, 1
6.93, 0
7.00, 1
7.07, 0
7.14, 2
7.21, 0
7.28, 0
7.35, 6
7.42, 8
7.49, 4
7.56, 0
7.63, 0
7.70, 1
7.77, 0
7.84, 3
7.91, 2
7.98, 5
8.05, 3
8.12, 1
8.19, 0
8.26, 1
8.33, 0
8.40, 1
8.47, 0
8.54, 0
8.61, 0
8.68, 2
8.75, 1
8.82, 1
8.89, 0
8.96, 0
9.03, 1
9.10, 0
9.17, 0
9.24, 1
9.31, 0
9.38, 1
9.45, 0
9.52, 1
9.59, 0
9.66, 0
9.73, 0
9.80, 0
9.87, 0
9.94, 0
10.01, 0
10.08, 0
10.15, 1
10.22, 1
10.29, 1
10.36, 0
10.43, 1
10.50, 0
10.57, 0
10.64, 0
10.71, 0
10.78, 0
10.85, 0
10.92, 1
10.99, 1
11.06, 0
11.13, 0
11.20, 1
11.27, 1
11.34, 0
11.41, 2
11.48, 1
11.55, 0
11.62, 0
11.69, 0
11.76, 1
11.83, 0
11.90, 0
11.97, 0
12.04, 0
12.11, 1
12.18, 0
12.25, 0
12.32, 0
12.39, 0
12.46, 1
12.53, 1
12.60, 0
12.67, 1
12.74, 2
12.81, 0
12.88, 0
12.95, 0
13.02, 0
13.09, 0
13.16, 0
13.23, 0
13.30, 0
13.37, 0
13.44, 0
13.51, 0
13.58, 0
13.65, 0
13.72, 0
13.79, 0
13.86, 0
13.93, 0
14.00, 0
14.07, 0
14.14, 0
14.21, 0
14.28, 0
14.35, 0
14.42, 0
14.49, 0
14.56, 0
14.63, 0
14.70, 0
14.77, 0
14.84, 0
14.91, 0
14.98, 0
15.05, 0
15.12, 0
15.19, 0
15.26, 0
15.33, 0
15.40, 0
15.47, 0
15.54, 0
15.61, 0
15.68, 0
15.75, 0
15.82, 0
15.89, 0
15.96, 0
16.03, 0
16.10, 0
16.17, 0
16.24, 0
16.31, 0
16.38, 0
16.45, 0
16.52, 0
16.59, 0
16.66, 0
16.73, 0
16.80, 0
16.87, 0
16.94, 0
17.01, 0
17.08, 0
17.15, 0
17.22, 0
17.29, 0
17.36, 0
17.43, 0
17.50, 0
17.57, 0
17.64, 0
17.71, 0
17.78, 0
17.85, 0
17.92, 0
17.99, 0
18.06, 0
18.13, 0
18.20, 0
18.27, 0
18.34, 0
18.41, 0
18.48, 0
18.55, 0
18.62, 0
18.69, 0
18.76, 0
18.83, 0
18.90, 0
18.97, 0
19.04, 0
19.11, 0
19.18, 0
19.25, 0
19.32, 0
19.39, 0
19.46, 0
19.53, 0
19.60, 0
19.67, 0
19.74, 0
19.81, 0
19.88, 0
19.95, 0
20.02, 0
20.09, 0
20.16, 0
20.23, 0
20.30, 0
20.37, 0
20.44, 0
20.47, 0
#ENDOFDATA   :