Folder: hBN_analysis/Scripts/hBN second lab/RAW output/bn15kvc

Note: README.md
Code for my Fourth Year Project

File: Project_001.EMSA
#FORMAT      : EMSA/MAS Spectral Data File
#VERSION     : 1.0
#TITLE       :
#DATE        : 24-Nov-2021
#TIME        : 16:23
#OWNER       : EPMAUser
#NPOINTS     : 2048.
#NCOLUMNS    : 2.
#XUNITS      : Energy (keV)
#YUNITS      : Intensity
#DATATYPE    : XY
#XPERCHAN    : 0.01
#OFFSET      : 0.00
#CHOFFSET    : 0.
#XLABEL      : X-RAY ENERGY
#YLABEL      : X-RAY INTENSITY
#BEAMKV      : 15.000
#LIVETIME    : 48.030
#REALTIME    : 56.390
#SPECTRUM    : DATA BEGINS HERE
0.00, 0
0.07, 0
0.14, 3895
0.21, 4774
0.28, 10939
0.35, 13339
0.42, 10878
0.49, 19860
0.56, 8675
0.63, 1425
0.70, 1433
0.77, 1579
0.84, 1372
0.91, 1450
0.98, 1284
1.05, 1257
1.12, 1076
1.19, 1059
1.26, 1043
1.33, 973
1.40, 1563
1.47, 16882
1.54, 3109
1.61, 737
1.68, 577
1.75, 574
1.82, 511
1.89, 446
1.96, 401
2.03, 387
2.10, 344
2.17, 305
2.24, 284
2.31, 282
2.38, 235
2.45, 212
2.52, 180
2.59, 181
2.66, 153
2.73, 162
2.80, 118
2.87, 126
2.94, 115
3.01, 94
3.08, 82
3.15, 80
3.22, 56
3.29, 53
3.36, 43
3.43, 40
3.50, 35
3.57, 23
3.64, 21
3.71, 19
3.78, 8
3.85, 6
3.92, 8
3.99, 3
4.06, 4
4.13, 4
4.20, 1
4.27, 5
4.34, 5
4.41, 1
4.48, 1
4.55, 5
4.62, 3
4.69, 0
4.76, 0
4.83, 0
4.90, 1
4.97, 2
5.04, 2
5.11, 1
5.18, 1
5.25, 2
5.32, 0
5.39, 1
5.46, 0
5.53, 0
5.60, 0
5.67, 3
5.74, 2
5.81, 1
5.88, 0
5.95, 2
6.02, 0
6.09, 0
6.16, 0
6.23, 1
6.30, 0
6.37, 2
6.44, 2
6.51, 2
6.58, 0
6.65, 2
6.72, 1
6.79, 0
6.86, 1
6.93, 0
7.00, 0
7.07, 0
7.14, 0
7.21, 1
7.28, 3
7.35, 3
7.42, 8
7.49, 6
7.56, 2
7.63, 1
7.70, 1
7.77, 0
7.84, 0
7.91, 1
7.98, 1
8.05, 0
8.12, 1
8.19, 2
8.26, 0
8.33, 0
8.40, 0
8.47, 0
8.54, 1
8.61, 0
8.68, 1
8.75, 1
8.82, 0
8.89, 0
8.96, 0
9.03, 0
9.10, 0
9.17, 0
9.24, 0
9.31, 2
9.38, 0
9.45, 0
9.52, 1
9.59, 1
9.66, 0
9.73, 0
9.80, 0
9.87, 0
9.94, 0
10.01, 1
10.08, 0
10.15, 0
10.22, 1
10.29, 0
10.36, 0
10.43, 1
10.50, 0
10.57, 0
10.64, 0
10.71, 1
10.78, 1
10.85, 0
10.92, 0
10.99, 0
11.06, 0
11.13, 0
11.20, 0
11.27, 0
11.34, 0
11.41, 0
11.48, 0
11.55, 0
11.62, 0
11.69, 0
11.76, 1
11.83, 0
11.90, 0
11.97, 0
12.04, 1
12.11, 0
12.18, 0
12.25, 0
12.32, 0
12.39, 0
12.46, 0
12.53, 0
12.60, 0
12.67, 0
12.74, 0
12.81, 0
12.88, 0
12.95, 0
13.02, 0
13.09, 0
13.16, 0
13.23, 0
13.30, 0
13.37, 0
13.44, 0
13.51, 0
13.58, 0
13.65, 0
13.72, 0
13.79, 0
13.86, 0
13.93, 0
14.00, 0
14.07, 0
14.14, 0
14.21, 0
14.28, 0
14.35, 0
14.42, 0
14.49, 0
14.56, 0
14.63, 0
14.70, 0
14.77, 0
14.84, 0
14.91, 0
14.98, 0
15.05, 0
15.12, 0
15.19, 0
15.26, 0
15.33, 0
15.40, 0
15.47, 0
15.54, 0
15.61, 0
15.68, 0
15.75, 0
15.82, 0
15.89, 0
15.96, 0
16.03, 0
16.10, 0
16.17, 0
16.24, 0
16.31, 0
16.38, 0
16.45, 0
16.52, 0
16.59, 0
16.66, 0
16.73, 0
16.80, 0
16.87, 0
16.94, 0
17.01, 0
17.08, 0
17.15, 0
17.22, 0
17.29, 0
17.36, 0
17.43, 0
17.50, 0
17.57, 0
17.64, 0
17.71, 0
17.78, 0
17.85, 0
17.92, 0
17.99, 0
18.06, 0
18.13, 0
18.20, 0
18.27, 0
18.34, 0
18.41, 0
18.48, 0
18.55, 0
18.62, 0
18.69, 0
18.76, 0
18.83, 0
18.90, 0
18.97, 0
19.04, 0
19.11, 0
19.18, 0
19.25, 0
19.32, 0
19.39, 0
19.46, 0
19.53, 0
19.60, 0
19.67, 0
19.74, 0
19.81, 0
19.88, 0
19.95, 0
20.02, 0
20.09, 0
20.16, 0
20.23, 0
20.30, 0
20.37, 0
20.44, 0
20.47, 0
#ENDOFDATA   :