Folder: hBN_analysis/Scripts/hBN second lab/RAW output/bn5kv

Note: README.md
Code for my Fourth Year Project

File: Project_.EMSA
#FORMAT      : EMSA/MAS Spectral Data File
#VERSION     : 1.0
#TITLE       : [MAP 1]
#DATE        : 24-Nov-2021
#TIME        : 15:48
#OWNER       : EPMAUser
#NPOINTS     : 2048.
#NCOLUMNS    : 2.
#XUNITS      : Energy (keV)
#YUNITS      : Intensity
#DATATYPE    : XY
#XPERCHAN    : 0.01
#OFFSET      : 0.00
#CHOFFSET    : 0.
#XLABEL      : X-RAY ENERGY
#YLABEL      : X-RAY INTENSITY
#BEAMKV      : 5.000
#LIVETIME    : 190.140
#REALTIME    : 196.600
#SPECTRUM    : DATA BEGINS HERE
0.00, 0
0.07, 0
0.14, 0
0.21, 22579
0.28, 28125
0.35, 62231
0.42, 60638
0.49, 56410
0.56, 40899
0.63, 7269
0.70, 4912
0.77, 5011
0.84, 4824
0.91, 4765
0.98, 4337
1.05, 4094
1.12, 3673
1.19, 3420
1.26, 3149
1.33, 3316
1.40, 9577
1.47, 25638
1.54, 12948
1.61, 2875
1.68, 1801
1.75, 1776
1.82, 1474
1.89, 1363
1.96, 1189
2.03, 1095
2.10, 936
2.17, 925
2.24, 783
2.31, 736
2.38, 657
2.45, 612
2.52, 501
2.59, 469
2.66, 399
2.73, 383
2.80, 323
2.87, 254
2.94, 256
3.01, 215
3.08, 164
3.15, 154
3.22, 112
3.29, 56
3.36, 70
3.43, 45
3.50, 27
3.57, 8
3.64, 6
3.71, 1
3.78, 2
3.85, 3
3.92, 0
3.99, 0
4.06, 1
4.13, 0
4.20, 0
4.27, 1
4.34, 2
4.41, 0
4.48, 0
4.55, 0
4.62, 0
4.69, 0
4.76, 1
4.83, 0
4.90, 1
4.97, 0
5.04, 0
5.11, 0
5.18, 0
5.25, 0
5.32, 0
5.39, 0
5.46, 0
5.53, 0
5.60, 0
5.67, 0
5.74, 0
5.81, 0
5.88, 0
5.95, 0
6.02, 0
6.09, 0
6.16, 0
6.23, 0
6.30, 0
6.37, 0
6.44, 0
6.51, 0
6.58, 0
6.65, 0
6.72, 0
6.79, 0
6.86, 0
6.93, 0
7.00, 0
7.07, 0
7.14, 0
7.21, 0
7.28, 0
7.35, 0
7.42, 0
7.49, 0
7.56, 0
7.63, 0
7.70, 0
7.77, 0
7.84, 0
7.91, 0
7.98, 0
8.05, 0
8.12, 0
8.19, 0
8.26, 0
8.33, 0
8.40, 0
8.47, 0
8.54, 0
8.61, 0
8.68, 0
8.75, 0
8.82, 0
8.89, 0
8.96, 0
9.03, 0
9.10, 0
9.17, 0
9.24, 0
9.31, 0
9.38, 0
9.45, 0
9.52, 0
9.59, 0
9.66, 0
9.73, 0
9.80, 0
9.87, 0
9.94, 0
10.01, 0
10.08, 0
10.15, 0
10.22, 0
10.29, 0
10.36, 0
10.43, 0
10.50, 0
10.57, 0
10.64, 0
10.71, 0
10.78, 0
10.85, 0
10.92, 0
10.99, 0
11.06, 0
11.13, 0
11.20, 0
11.27, 0
11.34, 0
11.41, 0
11.48, 0
11.55, 0
11.62, 0
11.69, 0
11.76, 0
11.83, 0
11.90, 0
11.97, 0
12.04, 0
12.11, 0
12.18, 0
12.25, 0
12.32, 0
12.39, 0
12.46, 0
12.53, 0
12.60, 0
12.67, 0
12.74, 0
12.81, 0
12.88, 0
12.95, 0
13.02, 0
13.09, 0
13.16, 0
13.23, 0
13.30, 0
13.37, 0
13.44, 0
13.51, 0
13.58, 0
13.65, 0
13.72, 0
13.79, 0
13.86, 0
13.93, 0
14.00, 0
14.07, 0
14.14, 0
14.21, 0
14.28, 0
14.35, 0
14.42, 0
14.49, 0
14.56, 0
14.63, 0
14.70, 0
14.77, 0
14.84, 0
14.91, 0
14.98, 0
15.05, 0
15.12, 0
15.19, 0
15.26, 0
15.33, 0
15.40, 0
15.47, 0
15.54, 0
15.61, 0
15.68, 0
15.75, 0
15.82, 0
15.89, 0
15.96, 0
16.03, 0
16.10, 0
16.17, 0
16.24, 0
16.31, 0
16.38, 0
16.45, 0
16.52, 0
16.59, 0
16.66, 0
16.73, 0
16.80, 0
16.87, 0
16.94, 0
17.01, 0
17.08, 0
17.15, 0
17.22, 0
17.29, 0
17.36, 0
17.43, 0
17.50, 0
17.57, 0
17.64, 0
17.71, 0
17.78, 0
17.85, 0
17.92, 0
17.99, 0
18.06, 0
18.13, 0
18.20, 0
18.27, 0
18.34, 0
18.41, 0
18.48, 0
18.55, 0
18.62, 0
18.69, 0
18.76, 0
18.83, 0
18.90, 0
18.97, 0
19.04, 0
19.11, 0
19.18, 0
19.25, 0
19.32, 0
19.39, 0
19.46, 0
19.53, 0
19.60, 0
19.67, 0
19.74, 0
19.81, 0
19.88, 0
19.95, 0
20.02, 0
20.09, 0
20.16, 0
20.23, 0
20.30, 0
20.37, 0
20.44, 0
20.47, 0
#ENDOFDATA   :