Folder: hBN_analysis/Scripts/hBN first lab

Note: README.md
Code for my Fourth Year Project

File: Project2_001.EMSA
#FORMAT      : EMSA/MAS Spectral Data File
#VERSION     : 1.0
#TITLE       :
#DATE        : 03-Nov-2021
#TIME        : 16:29
#OWNER       : EPMAUser
#NPOINTS     : 2048.
#NCOLUMNS    : 2.
#XUNITS      : Energy (keV)
#YUNITS      : Intensity
#DATATYPE    : XY
#XPERCHAN    : 0.01
#OFFSET      : 0.00
#CHOFFSET    : 0.
#XLABEL      : X-RAY ENERGY
#YLABEL      : X-RAY INTENSITY
#BEAMKV      : 15.000
#LIVETIME    : 28.230
#REALTIME    : 32.480
#SPECTRUM    : DATA BEGINS HERE
0.00, 0
0.07, 0
0.14, 350
0.21, 358
0.28, 643
0.35, 1185
0.42, 1141
0.49, 13441
0.56, 6932
0.63, 295
0.70, 351
0.77, 406
0.84, 490
0.91, 526
0.98, 531
1.05, 612
1.12, 601
1.19, 661
1.26, 726
1.33, 916
1.40, 4451
1.47, 54619
1.54, 11563
1.61, 687
1.68, 340
1.75, 334
1.82, 334
1.89, 317
1.96, 432
2.03, 418
2.10, 285
2.17, 304
2.24, 302
2.31, 256
2.38, 282
2.45, 275
2.52, 282
2.59, 259
2.66, 268
2.73, 232
2.80, 231
2.87, 242
2.94, 462
3.01, 326
3.08, 216
3.15, 202
3.22, 190
3.29, 186
3.36, 203
3.43, 197
3.50, 191
3.57, 182
3.64, 166
3.71, 163
3.78, 158
3.85, 162
3.92, 142
3.99, 122
4.06, 149
4.13, 130
4.20, 124
4.27, 125
4.34, 126
4.41, 120
4.48, 121
4.55, 113
4.62, 89
4.69, 85
4.76, 104
4.83, 97
4.90, 88
4.97, 96
5.04, 93
5.11, 82
5.18, 87
5.25, 100
5.32, 65
5.39, 81
5.46, 84
5.53, 76
5.60, 75
5.67, 87
5.74, 67
5.81, 76
5.88, 53
5.95, 53
6.02, 57
6.09, 63
6.16, 51
6.23, 60
6.30, 65
6.37, 54
6.44, 69
6.51, 48
6.58, 52
6.65, 56
6.72, 36
6.79, 53
6.86, 57
6.93, 36
7.00, 40
7.07, 47
7.14, 44
7.21, 38
7.28, 29
7.35, 39
7.42, 44
7.49, 38
7.56, 37
7.63, 34
7.70, 30
7.77, 34
7.84, 24
7.91, 31
7.98, 25
8.05, 25
8.12, 34
8.19, 28
8.26, 21
8.33, 24
8.40, 29
8.47, 29
8.54, 31
8.61, 23
8.68, 17
8.75, 19
8.82, 12
8.89, 17
8.96, 21
9.03, 15
9.10, 16
9.17, 18
9.24, 21
9.31, 15
9.38, 14
9.45, 11
9.52, 14
9.59, 15
9.66, 11
9.73, 7
9.80, 14
9.87, 10
9.94, 17
10.01, 4
10.08, 7
10.15, 11
10.22, 9
10.29, 7
10.36, 12
10.43, 13
10.50, 8
10.57, 10
10.64, 8
10.71, 11
10.78, 12
10.85, 7
10.92, 9
10.99, 7
11.06, 8
11.13, 11
11.20, 6
11.27, 5
11.34, 5
11.41, 4
11.48, 7
11.55, 3
11.62, 4
11.69, 5
11.76, 3
11.83, 4
11.90, 3
11.97, 5
12.04, 2
12.11, 5
12.18, 6
12.25, 1
12.32, 1
12.39, 3
12.46, 4
12.53, 1
12.60, 1
12.67, 0
12.74, 2
12.81, 2
12.88, 0
12.95, 0
13.02, 4
13.09, 0
13.16, 2
13.23, 2
13.30, 0
13.37, 1
13.44, 0
13.51, 0
13.58, 0
13.65, 1
13.72, 0
13.79, 0
13.86, 1
13.93, 0
14.00, 0
14.07, 1
14.14, 0
14.21, 0
14.28, 0
14.35, 0
14.42, 0
14.49, 0
14.56, 0
14.63, 0
14.70, 0
14.77, 0
14.84, 0
14.91, 0
14.98, 0
15.05, 0
15.12, 0
15.19, 0
15.26, 0
15.33, 0
15.40, 0
15.47, 0
15.54, 0
15.61, 0
15.68, 0
15.75, 0
15.82, 0
15.89, 0
15.96, 0
16.03, 0
16.10, 0
16.17, 0
16.24, 0
16.31, 0
16.38, 0
16.45, 0
16.52, 0
16.59, 0
16.66, 0
16.73, 0
16.80, 0
16.87, 0
16.94, 0
17.01, 0
17.08, 0
17.15, 0
17.22, 0
17.29, 0
17.36, 0
17.43, 0
17.50, 0
17.57, 0
17.64, 0
17.71, 0
17.78, 0
17.85, 0
17.92, 0
17.99, 0
18.06, 0
18.13, 0
18.20, 0
18.27, 0
18.34, 0
18.41, 0
18.48, 0
18.55, 0
18.62, 0
18.69, 0
18.76, 0
18.83, 0
18.90, 0
18.97, 0
19.04, 0
19.11, 0
19.18, 0
19.25, 0
19.32, 0
19.39, 0
19.46, 0
19.53, 0
19.60, 0
19.67, 0
19.74, 0
19.81, 0
19.88, 0
19.95, 0
20.02, 0
20.09, 0
20.16, 0
20.23, 0
20.30, 0
20.37, 0
20.44, 0
20.47, 0
#ENDOFDATA   :